Freq(Hz),S12(DB)
1.1E+11,-13.411434
1.101E+11,-13.336688
1.102E+11,-13.349407
1.103E+11,-13.366784
1.104E+11,-13.365178
1.105E+11,-13.408373
1.106E+11,-13.373602
1.107E+11,-13.372841
1.108E+11,-13.335548
1.109E+11,-13.327038
1.11E+11,-13.252197
1.111E+11,-13.295597
1.112E+11,-13.261255
1.113E+11,-13.24264
1.114E+11,-13.298831
1.115E+11,-13.238263
1.116E+11,-13.235181
1.117E+11,-13.254416
1.118E+11,-13.229872
1.119E+11,-13.24418
1.12E+11,-13.210746
1.121E+11,-13.180777
1.122E+11,-13.171859
1.123E+11,-13.096506
1.124E+11,-13.040712
1.125E+11,-13.06784
1.126E+11,-13.039112
1.127E+11,-13.028745
1.128E+11,-13.046409
1.129E+11,-13.025273
1.13E+11,-13.050607
1.131E+11,-13.092865
1.132E+11,-13.004223
1.133E+11,-13.026628
1.134E+11,-13.044351
1.135E+11,-12.940088
1.136E+11,-13.019267
1.137E+11,-13.047465
1.138E+11,-13.060436
1.139E+11,-13.135249
1.14E+11,-13.123154
1.141E+11,-13.093944
1.142E+11,-13.140062
1.143E+11,-13.100448
1.144E+11,-13.031232
1.145E+11,-13.183628
1.146E+11,-13.287929
1.147E+11,-13.327952
1.148E+11,-13.289356
1.149E+11,-13.275675
1.15E+11,-13.28313
1.151E+11,-13.348802
1.152E+11,-13.302489
1.153E+11,-13.372917
1.154E+11,-13.414091
1.155E+11,-13.351134
1.156E+11,-13.383567
1.157E+11,-13.386496
1.158E+11,-13.307371
1.159E+11,-13.268331
1.16E+11,-13.232328
1.161E+11,-13.201452
1.162E+11,-13.152031
1.163E+11,-13.1217
1.164E+11,-13.092668
1.165E+11,-13.022957
1.166E+11,-13.004777
1.167E+11,-13.013759
1.168E+11,-12.935896
1.169E+11,-12.942512
1.17E+11,-12.893837
1.171E+11,-12.921175
1.172E+11,-12.904238
1.173E+11,-12.83138
1.174E+11,-12.758504
1.175E+11,-12.783034
1.176E+11,-12.739821
1.177E+11,-12.751678
1.178E+11,-12.805439
1.179E+11,-12.708652
1.18E+11,-12.721735
1.181E+11,-12.728215
1.182E+11,-12.715402
1.183E+11,-12.735961
1.184E+11,-12.737086
1.185E+11,-12.573605
1.186E+11,-12.627528
1.187E+11,-12.610184
1.188E+11,-12.601466
1.189E+11,-12.604345
1.19E+11,-12.55355
1.191E+11,-12.576468
1.192E+11,-12.596153
1.193E+11,-12.573884
1.194E+11,-12.587698
1.195E+11,-12.599401
1.196E+11,-12.508965
1.197E+11,-12.499481
1.198E+11,-12.497192
1.199E+11,-12.423933
1.2E+11,-12.468718
1.201E+11,-12.439727
1.202E+11,-12.47716
1.203E+11,-12.531683
1.204E+11,-12.430946
1.205E+11,-12.48672
1.206E+11,-12.499301
1.207E+11,-12.386142
1.208E+11,-12.454577
1.209E+11,-12.468172
1.21E+11,-12.450781
1.211E+11,-12.466614
1.212E+11,-12.431182
1.213E+11,-12.420454
1.214E+11,-12.39484
1.215E+11,-12.31556
1.216E+11,-12.407737
1.217E+11,-12.298067
1.218E+11,-12.279648
1.219E+11,-12.397701
1.22E+11,-12.266159
1.221E+11,-12.274626
1.222E+11,-12.265406
1.223E+11,-12.264383
1.224E+11,-12.351404
1.225E+11,-12.333136
1.226E+11,-12.342451
1.227E+11,-12.390206
1.228E+11,-12.301597
1.229E+11,-12.374482
1.23E+11,-12.392026
1.231E+11,-12.413938
1.232E+11,-12.404448
1.233E+11,-12.366995
1.234E+11,-12.396603
1.235E+11,-12.439576
1.236E+11,-12.384303
1.237E+11,-12.477219
1.238E+11,-12.467345
1.239E+11,-12.469182
1.24E+11,-12.526123
1.241E+11,-12.509882
1.242E+11,-12.450423
1.243E+11,-12.47118
1.244E+11,-12.439009
1.245E+11,-12.414942
1.246E+11,-12.513294
1.247E+11,-12.450608
1.248E+11,-12.48541
1.249E+11,-12.537458
1.25E+11,-12.463142
1.251E+11,-12.46531
1.252E+11,-12.464485
1.253E+11,-12.394168
1.254E+11,-12.404009
1.255E+11,-12.427969
1.256E+11,-12.444464
1.257E+11,-12.426678
1.258E+11,-12.427711
1.259E+11,-12.425459
1.26E+11,-12.399091
1.261E+11,-12.35754
1.262E+11,-12.425512
1.263E+11,-12.412024
1.264E+11,-12.429913
1.265E+11,-12.383048
1.266E+11,-12.36462
1.267E+11,-12.414993
1.268E+11,-12.369654
1.269E+11,-12.332414
1.27E+11,-12.421535
1.271E+11,-12.379232
1.272E+11,-12.385983
1.273E+11,-12.465558
1.274E+11,-12.408717
1.275E+11,-12.40506
1.276E+11,-12.393044
1.277E+11,-12.284453
1.278E+11,-12.340865
1.279E+11,-12.262538
1.28E+11,-12.326488
1.281E+11,-12.316515
1.282E+11,-12.292085
1.283E+11,-12.343224
1.284E+11,-12.268656
1.285E+11,-12.272191
1.286E+11,-12.292892
1.287E+11,-12.220925
1.288E+11,-12.255864
1.289E+11,-12.289209
1.29E+11,-12.29471
1.291E+11,-12.369896
1.292E+11,-12.329614
1.293E+11,-12.285686
1.294E+11,-12.251913
1.295E+11,-12.315386
1.296E+11,-12.313127
1.297E+11,-12.367165
1.298E+11,-12.359803
1.299E+11,-12.346859
1.3E+11,-12.364925
1.301E+11,-12.339735
1.302E+11,-12.340371
1.303E+11,-12.398516
1.304E+11,-12.35226
1.305E+11,-12.377373
1.306E+11,-12.396394
1.307E+11,-12.331723
1.308E+11,-12.376295
1.309E+11,-12.382328
1.31E+11,-12.413374
1.311E+11,-12.405214
1.312E+11,-12.414146
1.313E+11,-12.373594
1.314E+11,-12.380229
1.315E+11,-12.398503
1.316E+11,-12.459781
1.317E+11,-12.441194
1.318E+11,-12.421496
1.319E+11,-12.512185
1.32E+11,-12.503275
1.321E+11,-12.496781
1.322E+11,-12.46788
1.323E+11,-12.505846
1.324E+11,-12.516468
1.325E+11,-12.436852
1.326E+11,-12.416557
1.327E+11,-12.49297
1.328E+11,-12.518027
1.329E+11,-12.427379
1.33E+11,-12.456565
1.331E+11,-12.428846
1.332E+11,-12.458673
1.333E+11,-12.554011
1.334E+11,-12.557504
1.335E+11,-12.568926
1.336E+11,-12.471466
1.337E+11,-12.443596
1.338E+11,-12.468122
1.339E+11,-12.437969
1.34E+11,-12.440131
1.341E+11,-12.45505
1.342E+11,-12.470697
1.343E+11,-12.549828
1.344E+11,-12.527197
1.345E+11,-12.527843
1.346E+11,-12.508888
1.347E+11,-12.448047
1.348E+11,-12.478527
1.349E+11,-12.556756
1.35E+11,-12.432706
1.351E+11,-12.490035
1.352E+11,-12.516564
1.353E+11,-12.465054
1.354E+11,-12.439369
1.355E+11,-12.459364
1.356E+11,-12.410991
1.357E+11,-12.476494
1.358E+11,-12.494546
1.359E+11,-12.44284
1.36E+11,-12.458605
1.361E+11,-12.459336
1.362E+11,-12.362221
1.363E+11,-12.384157
1.364E+11,-12.447449
1.365E+11,-12.409742
1.366E+11,-12.442438
1.367E+11,-12.395143
1.368E+11,-12.393229
1.369E+11,-12.410067
1.37E+11,-12.363634
1.371E+11,-12.372357
1.372E+11,-12.384728
1.373E+11,-12.351333
1.374E+11,-12.392778
1.375E+11,-12.359416
1.376E+11,-12.360907
1.377E+11,-12.355893
1.378E+11,-12.343941
1.379E+11,-12.351056
1.38E+11,-12.337134
1.381E+11,-12.262107
1.382E+11,-12.343343
1.383E+11,-12.281265
1.384E+11,-12.378097
1.385E+11,-12.389786
1.386E+11,-12.398809
1.387E+11,-12.388004
1.388E+11,-12.355862
1.389E+11,-12.411676
1.39E+11,-12.405659
1.391E+11,-12.37581
1.392E+11,-12.464584
1.393E+11,-12.423189
1.394E+11,-12.435418
1.395E+11,-12.440152
1.396E+11,-12.389621
1.397E+11,-12.415173
1.398E+11,-12.463923
1.399E+11,-12.457058
1.4E+11,-12.424032
1.401E+11,-12.462414
1.402E+11,-12.531722
1.403E+11,-12.509235
1.404E+11,-12.507001
1.405E+11,-12.520493
1.406E+11,-12.523709
1.407E+11,-12.546683
1.408E+11,-12.533895
1.409E+11,-12.422682
1.41E+11,-12.517978
1.411E+11,-12.54417
1.412E+11,-12.436058
1.413E+11,-12.494151
1.414E+11,-12.524074
1.415E+11,-12.467301
1.416E+11,-12.504478
1.417E+11,-12.520332
1.418E+11,-12.498222
1.419E+11,-12.503613
1.42E+11,-12.562654
1.421E+11,-12.484909
1.422E+11,-12.470268
1.423E+11,-12.49553
1.424E+11,-12.482471
1.425E+11,-12.483957
1.426E+11,-12.505622
1.427E+11,-12.498474
1.428E+11,-12.52317
1.429E+11,-12.533231
1.43E+11,-12.504373
1.431E+11,-12.568963
1.432E+11,-12.59896
1.433E+11,-12.597255
1.434E+11,-12.621417
1.435E+11,-12.577171
1.436E+11,-12.593309
1.437E+11,-12.63833
1.438E+11,-12.738366
1.439E+11,-12.787178
1.44E+11,-12.795058
1.441E+11,-12.856567
1.442E+11,-12.895459
1.443E+11,-12.914312
1.444E+11,-12.883805
1.445E+11,-12.977023
1.446E+11,-13.157845
1.447E+11,-13.086857
1.448E+11,-13.00874
1.449E+11,-13.02889
1.45E+11,-13.105493
1.451E+11,-13.126658
1.452E+11,-13.049562
1.453E+11,-13.086232
1.454E+11,-13.179223
1.455E+11,-12.945311
1.456E+11,-12.945449
1.457E+11,-13.0025
1.458E+11,-12.833516
1.459E+11,-12.759929
1.46E+11,-12.800624
1.461E+11,-12.733557
1.462E+11,-12.757257
1.463E+11,-12.813111
1.464E+11,-12.723036
1.465E+11,-12.766936
1.466E+11,-12.865734
1.467E+11,-12.837835
1.468E+11,-12.74898
1.469E+11,-12.687668
1.47E+11,-12.783758
1.471E+11,-12.700559
1.472E+11,-12.753843
1.473E+11,-12.691305
1.474E+11,-12.775152
1.475E+11,-12.784058
1.476E+11,-12.786119
1.477E+11,-12.791295
1.478E+11,-12.827158
1.479E+11,-12.813643
1.48E+11,-12.817605
1.481E+11,-12.843823
1.482E+11,-12.897149
1.483E+11,-12.810866
1.484E+11,-12.835549
1.485E+11,-12.938723
1.486E+11,-12.890514
1.487E+11,-12.912621
1.488E+11,-12.919749
1.489E+11,-12.86485
1.49E+11,-12.925258
1.491E+11,-12.877913
1.492E+11,-12.909274
1.493E+11,-12.951527
1.494E+11,-12.987024
1.495E+11,-12.995634
1.496E+11,-13.083261
1.497E+11,-13.029548
1.498E+11,-13.084556
1.499E+11,-13.085148
1.5E+11,-13.101935
1.501E+11,-13.164579
1.502E+11,-13.229797
1.503E+11,-13.091287
1.504E+11,-13.167626
1.505E+11,-13.08858
1.506E+11,-13.077897
1.507E+11,-13.102699
1.508E+11,-13.059836
1.509E+11,-13.051291
1.51E+11,-13.075977
1.511E+11,-13.104934
1.512E+11,-13.090881
1.513E+11,-13.073913
1.514E+11,-13.095786
1.515E+11,-13.109423
1.516E+11,-13.124667
1.517E+11,-13.053909
1.518E+11,-13.049966
1.519E+11,-13.123368
1.52E+11,-13.101982
1.521E+11,-13.082183
1.522E+11,-13.139258
1.523E+11,-13.166715
1.524E+11,-13.14211
1.525E+11,-13.048199
1.526E+11,-13.14585
1.527E+11,-13.226589
1.528E+11,-13.180743
1.529E+11,-13.225105
1.53E+11,-13.196755
1.531E+11,-13.178913
1.532E+11,-13.128414
1.533E+11,-13.155427
1.534E+11,-13.241126
1.535E+11,-13.055429
1.536E+11,-13.169412
1.537E+11,-13.173521
1.538E+11,-13.121168
1.539E+11,-13.130808
1.54E+11,-13.15405
1.541E+11,-13.122905
1.542E+11,-13.144669
1.543E+11,-13.15235
1.544E+11,-13.235913
1.545E+11,-13.206829
1.546E+11,-13.208232
1.547E+11,-13.225148
1.548E+11,-13.290787
1.549E+11,-13.325871
1.55E+11,-13.359644
1.551E+11,-13.370449
1.552E+11,-13.378108
1.553E+11,-13.417483
1.554E+11,-13.394234
1.555E+11,-13.419533
1.556E+11,-13.390612
1.557E+11,-13.410121
1.558E+11,-13.432832
1.559E+11,-13.438322
1.56E+11,-13.410162
1.561E+11,-13.40922
1.562E+11,-13.390666
1.563E+11,-13.427545
1.564E+11,-13.42799
1.565E+11,-13.343836
1.566E+11,-13.366086
1.567E+11,-13.333286
1.568E+11,-13.29609
1.569E+11,-13.359874
1.57E+11,-13.329722
1.571E+11,-13.34464
1.572E+11,-13.405926
1.573E+11,-13.316386
1.574E+11,-13.27454
1.575E+11,-13.30842
1.576E+11,-13.214739
1.577E+11,-13.280235
1.578E+11,-13.285027
1.579E+11,-13.243573
1.58E+11,-13.250727
1.581E+11,-13.326364
1.582E+11,-13.217199
1.583E+11,-13.268361
1.584E+11,-13.269487
1.585E+11,-13.257315
1.586E+11,-13.240882
1.587E+11,-13.255587
1.588E+11,-13.213412
1.589E+11,-13.220895
1.59E+11,-13.285715
1.591E+11,-13.18859
1.592E+11,-13.246623
1.593E+11,-13.260564
1.594E+11,-13.209791
1.595E+11,-13.250266
1.596E+11,-13.224258
1.597E+11,-13.233248
1.598E+11,-13.270204
1.599E+11,-13.245674
1.6E+11,-13.244966
1.601E+11,-13.234349
1.602E+11,-13.272092
1.603E+11,-13.250045
1.604E+11,-13.233676
1.605E+11,-13.257066
1.606E+11,-13.272428
1.607E+11,-13.22773
1.608E+11,-13.214622
1.609E+11,-13.247046
1.61E+11,-13.273258
1.611E+11,-13.238969
1.612E+11,-13.270003
1.613E+11,-13.301733
1.614E+11,-13.286014
1.615E+11,-13.284078
1.616E+11,-13.219518
1.617E+11,-13.239234
1.618E+11,-13.349091
1.619E+11,-13.232415
1.62E+11,-13.253697
1.621E+11,-13.303795
1.622E+11,-13.300079
1.623E+11,-13.303169
1.624E+11,-13.260504
1.625E+11,-13.31266
1.626E+11,-13.312235
1.627E+11,-13.366123
1.628E+11,-13.415379
1.629E+11,-13.35793
1.63E+11,-13.314968
1.631E+11,-13.277201
1.632E+11,-13.3458
1.633E+11,-13.37586
1.634E+11,-13.268101
1.635E+11,-13.287414
1.636E+11,-13.218999
1.637E+11,-13.335648
1.638E+11,-13.32435
1.639E+11,-13.335823
1.64E+11,-13.317339
1.641E+11,-13.309452
1.642E+11,-13.383164
1.643E+11,-13.274397
1.644E+11,-13.206019
1.645E+11,-13.252075
1.646E+11,-13.372992
1.647E+11,-13.345426
1.648E+11,-13.367043
1.649E+11,-13.327722
1.65E+11,-13.346897
1.651E+11,-13.268843
1.652E+11,-13.420403
1.653E+11,-13.419636
1.654E+11,-13.416974
1.655E+11,-13.341128
1.656E+11,-13.368989
1.657E+11,-13.359674
1.658E+11,-13.302765
1.659E+11,-13.280215
1.66E+11,-13.391142
1.661E+11,-13.371152
1.662E+11,-13.406457
1.663E+11,-13.305062
1.664E+11,-13.400327
1.665E+11,-13.32997
1.666E+11,-13.382141
1.667E+11,-13.373029
1.668E+11,-13.474992
1.669E+11,-13.351497
1.67E+11,-13.49718
1.671E+11,-13.528391
1.672E+11,-13.525739
1.673E+11,-13.381848
1.674E+11,-13.425653
1.675E+11,-13.44951
1.676E+11,-13.490707
1.677E+11,-13.496301
1.678E+11,-13.47298
1.679E+11,-13.504279
1.68E+11,-13.563163
1.681E+11,-13.520446
1.682E+11,-13.550783
1.683E+11,-13.562947
1.684E+11,-13.555999
1.685E+11,-13.575204
1.686E+11,-13.561831
1.687E+11,-13.533978
1.688E+11,-13.588436
1.689E+11,-13.539778
1.69E+11,-13.529613
1.691E+11,-13.477846
1.692E+11,-13.564463
1.693E+11,-13.491996
1.694E+11,-13.648717
1.695E+11,-13.687304
1.696E+11,-13.721453
1.697E+11,-13.591207
1.698E+11,-13.623753
1.699E+11,-13.613366
1.7E+11,-13.842999
